Folder: DataImporter/data

Note: data/averageResistances.txt
Sample 1: 2.6638848188812903 kilo ohms
Sample 2: 2.663263322318065 kilo ohms
Sample 3: 2.66391947863 kilo ohms

Note: data/Experiment settings and notes.txt
Repeating EIS and OCV
Plus1307, Channel 1
Firmware Version : 2020 June 5 Plus 2.3b firmware
Software Version : Squidstat User Interface v2.06.05.2020
Version : Windows64

Physical Parameters:
Working Electrode Area (cm2): 
Working Electrode Mass (g): 
Working Electrode Volume (cm3): 
Electrolyte: 
Electrolyte concentration (moles per liter): 
Temperature (deg. C): 
Atmosphere: 

Reference Electrode:
Common Reference Electrode: Ag/AgCl in 0.1M KCl
Working Electrode vs. NHE (V): 0.2894

Other Notes:
Repeating EIS and OCV experiment, data file
2-: sample 1
4-: sample 2
6-: sample 3


Experiment Parameters:
Loop 1 start, execute 3 time(s) total

Step 1) Potentiostatic EIS parameters
Starting frequency: 1000kHz
Ending frequency: 1Hz
Steps per decade: 5
DC bias potential: 0V, with respect to reference
AC amplitude: 10mV
Execute 1 time(s)

Step 2) Open circuit parameters
Sampling interval: 1 s
Maximum duration: 60 s
Maximum potential: 12V
Minimum potential: -12V
Minimum potential rate of change: 0 mV/s
Execute 1 time(s)

Loop 1 end



Potentiostat Stability: Capacitive loading (current <= 1mA)

IR Drop Compensation: 
Uncompensated Resistance: 0
Compensation Level (0% - 100%): 0%

Data Sampling Options: 
Maximum data averaging period: 0.1 s
Alpha-Factor:  75%
Minimum number of cycles: 2
Show data sampled during experiment "quiet times":  false

File: 2__Potentiostatic EIS 20200901 132823.csv
"Step number","Step name","Elapsed Time  (s)","DC Working Electrode (V)","DC Current (mA)","Frequency (Hz)","|Z| (Ohms)","Phase (deg)","Z' (Ohms)","-Z"" (Ohms)","THD (%)","Amplitude (mV/mA)","No of Cycles","Duration of Each Frequency (s)"
1_1,Potentiostatic EIS,1.7923,-0.000257327,0.00242333,995000,98.5054,0.889504,98.4936,-1.52921,17.9267,7.30614,304,0.000305528
1_1,Potentiostatic EIS,3.08994,-0.00036827,0.000906586,635000,100.002,1.37869,99.973,-2.40608,1.34733,9.58414,196,0.000308661
1_1,Potentiostatic EIS,3.50568,-0.000405664,0.000985808,398107,99.4563,0.416195,99.4537,-0.722442,0.559816,10.3743,228,0.00057271
1_1,Potentiostatic EIS,3.90523,-0.000364284,0.000299591,251189,99.8972,-0.0978961,99.8971,0.170685,0.222353,10.2758,199,0.000792233
1_1,Potentiostatic EIS,4.08481,-0.000283355,0.000278925,158489,99.9382,-0.520924,99.934,0.908609,0.21819,10.126,195,0.00123037
1_1,Potentiostatic EIS,4.33828,-0.000374607,0.000271822,99999.9,99.9781,-0.821325,99.9678,1.43312,0.224701,10.1022,203,0.00203
1_1,Potentiostatic EIS,4.71871,-0.000406095,0.000272775,63095.7,100.046,-1.36939,100.017,2.39091,0.229502,10.2109,207,0.00328073
1_1,Potentiostatic EIS,5.3006,-0.000401855,0.000283955,39810.7,100.141,-2.2485,100.064,3.92888,0.235755,10.5969,203,0.00509913
1_1,Potentiostatic EIS,7.71263,-0.000311718,-2.32774e-05,25118.8,100.3,-3.64726,100.0964,6.38043,0.423458,8.09849,204,0.00812141
1_1,Potentiostatic EIS,9.80122,-0.000358157,0.000256589,15848.875,100.6,-5.71642,100.099,10.0202,0.238418,10.8837,204,0.0128716
1_1,Potentiostatic EIS,13.0328,-0.000294865,-0.000190453,9999.98,101.275,-9.04593,100.016,15.9231,0.0820556,7.91856,205,0.0205
1_1,Potentiostatic EIS,16.1088,-0.000267519,-0.000174074,6309.57,103.227,-14.1877,100.078,25.3008,0.0918729,10.9728,133,0.0210791
1_1,Potentiostatic EIS,20.448,-0.000227653,-0.00017276,3981.05,107.987,-21.8961,100.197,40.2709,0.0592334,10.8511,81,0.0203464
1_1,Potentiostatic EIS,25.9828,-0.000214229,-0.000170986,2511.88,119.088,-32.437,100.508,63.8753,0.127144,10.9479,50,0.0199054
1_1,Potentiostatic EIS,26.6252,-0.000203297,-0.000168373,1584.89,143.24,-45.0563,101.186,101.385,0.0959319,11.997,649,0.409492
1_1,Potentiostatic EIS,27.1726,-0.000210251,-1.82679e-05,999.996,190.842,-57.3789,102.879,160.737,0.064126,10.0207,409,0.409002
1_1,Potentiostatic EIS,27.6468,-0.000208902,-1.80016e-05,630.956,276.374,-67.253,106.864,254.878,0.102773,9.80208,257,0.407318
1_1,Potentiostatic EIS,28.1771,-0.000217293,-3.24507e-05,398.105,420.116,-73.8741,116.687,403.586,0.128047,9.53869,162,0.406927
1_1,Potentiostatic EIS,28.8349,-0.000204136,-3.36454e-05,251.188,653.715,-77.4779,141.736,638.165,0.218157,9.43308,101,0.402089
1_1,Potentiostatic EIS,29.3136,-0.000204553,-3.3874e-05,158.489,1025.46,-78.581,203.024,1005.16,0.232971,9.37249,64,0.403813
1_1,Potentiostatic EIS,29.7962,-0.00020735,-3.38315e-05,99.9993,1608.11,-77.2912,353.778,1568.71,0.266155,9.34944,40,0.400003
1_1,Potentiostatic EIS,30.4046,-0.000206746,2.82339e-06,63.0956,2498.43,-73.4355,712.29,2394.74,0.540306,9.34183,25,0.396224
1_1,Potentiostatic EIS,30.9605,-0.0002111,3.71919e-06,39.8106,3786.55,-66.5621,1506.11,3474.13,0.168653,8.63517,16,0.401903
1_1,Potentiostatic EIS,31.4809,-0.000194478,4.67733e-06,25.1188,5446.42,-56.4338,3011.33,4538.21,0.132204,9.50603,10,0.398108
1_1,Potentiostatic EIS,34.1157,-0.000195676,-2.75079e-05,15.8489,7198.41,-43.9774,5180.07,4998.39,0.254575,9.11634,6,0.378576
1_1,Potentiostatic EIS,34.7584,-0.000201599,-2.71012e-05,9.99998,8580.06,-31.4816,7317.15,4480.72,0.297343,9.23701,4,0.400001
1_1,Potentiostatic EIS,35.4347,-0.000201164,-2.75755e-05,6.30953,9405.01,-21.1753,8769.98,3397.3,0.220711,9.29518,2,0.316981
1_1,Potentiostatic EIS,36.2302,-0.000208194,-2.84548e-05,3.98106,9809.34,-13.7353,9528.82,2329.1,0.205323,9.3172,2,0.502378
1_1,Potentiostatic EIS,37.4668,-0.000199405,-2.74788e-05,2.51188,9978.37,-8.76423,9861.86,1520.39,0.117455,9.32053,2,0.796217
1_1,Potentiostatic EIS,39.4014,-0.00020646,-2.78768e-05,1.58489,10053.2,-5.55709,10006,973.531,0.0986176,9.3303,2,1.26192
1_1,Potentiostatic EIS,41.4168,-0.000204405,-2.78199e-05,0.999995,10076.3,-3.50433,10057.5,615.905,0.0844625,9.32871,2,2.00001

File: 4__Potentiostatic EIS 20200901 132931.csv
"Step number","Step name","Elapsed Time  (s)","DC Working Electrode (V)","DC Current (mA)","Frequency (Hz)","|Z| (Ohms)","Phase (deg)","Z' (Ohms)","-Z"" (Ohms)","THD (%)","Amplitude (mV/mA)","No of Cycles","Duration of Each Frequency (s)"
1_2,Potentiostatic EIS,69.525,-0.000244289,0.00246747,995000,98.7039,0.960736,98.69,-1.65499,13.4862,7.32704,304,0.000305528
1_2,Potentiostatic EIS,71.1645,-0.00030108,0.000954737,635000,99.0316,0.18131,99.0311,-0.313381,0.511665,9.43428,196,0.000308661
1_2,Potentiostatic EIS,71.991,-0.000287119,0.000926367,398107,99.4282,-0.086508,99.4281,0.150121,1.44825,10.4218,228,0.00057271
1_2,Potentiostatic EIS,72.8353,-0.000268878,0.000953615,251189,99.6496,-0.143343,99.6493,0.249305,0.257948,9.97088,199,0.000792233
1_2,Potentiostatic EIS,73.7698,-0.000356077,0.000946626,158489,99.7807,-0.490084,99.777,0.853472,0.614337,9.84604,195,0.00123037
1_2,Potentiostatic EIS,74.3201,-0.000344932,0.000256206,99999.9,99.974,-0.867863,99.9625,1.51425,0.229568,10.0748,203,0.00203
1_2,Potentiostatic EIS,74.7003,-0.000376108,0.000269745,63095.7,100.01,-1.37901,99.981,2.40683,0.217535,10.3476,207,0.00328073
1_2,Potentiostatic EIS,75.282,-0.000341036,0.000262237,39810.7,100.075,-2.24017,99.9985,3.91176,0.287024,10.7146,203,0.00509913
1_2,Potentiostatic EIS,77.1372,-0.000371686,-6.41007e-06,25118.8,99.947,-3.67918,99.741,6.41357,0.128015,8.14698,204,0.00812141
1_2,Potentiostatic EIS,78.8926,-0.000397599,0.000253524,15848.875,100.453,-5.79675,99.9392,10.1457,0.206131,10.9066,204,0.0128716
1_2,Potentiostatic EIS,82.1609,-0.00127743,0.000165151,9999.98,101.247,-9.05477,99.9848,15.934,0.0839293,7.92576,205,0.0205
1_2,Potentiostatic EIS,85.253,0.000482873,0.000188063,6309.57,103.198,-14.1876,100.05,25.2935,0.12573,10.9833,133,0.0210791
1_2,Potentiostatic EIS,89.5933,0.000517754,0.000192285,3981.05,107.963,-21.8933,100.177,40.2573,0.0947339,10.861,81,0.0203464
1_2,Potentiostatic EIS,95.128,0.000534884,0.000191317,2511.88,119.02,-32.4426,100.444,63.8487,0.174543,10.9506,50,0.0199054
1_2,Potentiostatic EIS,95.7708,0.000532685,0.000190639,1584.89,143.199,-45.0617,101.148,101.366,0.326146,11.993,649,0.409492
1_2,Potentiostatic EIS,96.3279,0.000535163,-2.25154e-05,999.996,190.818,-57.3761,102.874,160.713,0.107445,10.0175,409,0.409002
1_2,Potentiostatic EIS,96.8023,0.000528653,-2.22309e-05,630.956,276.231,-67.2564,106.793,254.752,0.146579,9.79629,257,0.407318
1_2,Potentiostatic EIS,97.3321,0.000533119,-1.10214e-05,398.105,420.006,-73.8749,116.651,403.482,0.106082,9.53519,162,0.406927
1_2,Potentiostatic EIS,97.9858,0.000533553,-2.75045e-05,251.188,653.437,-77.4809,141.642,637.901,0.229784,9.43044,101,0.402089
1_2,Potentiostatic EIS,98.4642,0.000527885,-2.69362e-05,158.489,1025.18,-78.577,203.038,1004.87,0.216361,9.36925,64,0.403813
1_2,Potentiostatic EIS,98.9474,0.000532974,-2.69824e-05,99.9993,1607.5,-77.2978,353.461,1568.15,0.279624,9.3435,40,0.400003
1_2,Potentiostatic EIS,99.5134,0.000530327,-1.52487e-05,63.0956,2497.43,-73.4308,712.201,2393.73,0.589753,9.33448,25,0.396224
1_2,Potentiostatic EIS,100.073,0.000524231,-1.53318e-05,39.8106,3785.41,-66.5576,1505.94,3472.96,0.141985,8.63152,16,0.401903
1_2,Potentiostatic EIS,100.594,0.000551111,-1.30738e-05,25.1188,5446.04,-56.4288,3011.51,4537.63,0.116084,9.50328,10,0.398108
1_2,Potentiostatic EIS,101.412,0.000602739,-4.48442e-06,15.8489,7196.98,-43.9577,5180.76,4995.62,0.234996,9.34427,6,0.378576
1_2,Potentiostatic EIS,102.054,0.000597381,-4.87354e-06,9.99998,8578.71,-31.4775,7316.31,4479.49,0.302853,9.46842,4,0.400001
1_2,Potentiostatic EIS,102.731,0.000593444,-5.10217e-06,6.30953,9402.58,-21.1566,8768.82,3393.57,0.219496,9.52392,2,0.316981
1_2,Potentiostatic EIS,103.526,0.000597778,-4.857e-06,3.98106,9801.97,-13.7341,9521.71,2327.15,0.208994,9.54537,2,0.502378
1_2,Potentiostatic EIS,104.762,0.000611257,-4.25654e-06,2.51188,9976.82,-8.76737,9860.24,1520.7,0.114835,9.55543,2,0.796217
1_2,Potentiostatic EIS,106.697,0.000600256,-5.0716e-06,1.58489,10048.5,-5.57481,10000.9,976.162,0.0872456,9.55954,2,1.26192
1_2,Potentiostatic EIS,108.713,0.000602867,-4.69631e-06,0.999995,10081.907,-3.51955,10062.9,618.92,0.0782636,9.56701,2,2.00001

File: 6__Potentiostatic EIS 20200901 133112.csv
"Step number","Step name","Elapsed Time  (s)","DC Working Electrode (V)","DC Current (mA)","Frequency (Hz)","|Z| (Ohms)","Phase (deg)","Z' (Ohms)","-Z"" (Ohms)","THD (%)","Amplitude (mV/mA)","No of Cycles","Duration of Each Frequency (s)"
1_2,Potentiostatic EIS,169.579,-0.000199186,9.60981e-05,995000,100.34,2.61888,100.235,-4.58476,2.20308,3.92511,304,0.000305528
1_2,Potentiostatic EIS,170.867,-0.000284843,0.00257025,635000,99.5537,0.886147,99.5418,-1.53965,3.56387,6.71716,196,0.000308661
1_2,Potentiostatic EIS,171.83,-0.000347879,3.71033e-06,398107,99.5558,0.33264,99.5541,-0.577984,0.308361,9.58216,228,0.00057271
1_2,Potentiostatic EIS,171.991,-0.000354195,-5.021e-06,251189,99.9857,-0.0988551,99.9855,0.17251,0.265554,9.84944,199,0.000792233
1_2,Potentiostatic EIS,172.175,-0.000351285,1.04267e-05,158489,99.9366,-0.430941,99.9338,0.751649,0.237298,9.80255,195,0.00123037
1_2,Potentiostatic EIS,172.428,-0.000387919,5.3589e-06,99999.9,100.005,-0.856488,99.9937,1.49487,0.199474,9.86958,203,0.00203
1_2,Potentiostatic EIS,172.809,-0.000366498,3.3745e-06,63095.7,100.131,-1.3849,100.102,2.42003,0.151504,10.0551,207,0.00328073
1_2,Potentiostatic EIS,173.391,-0.000392496,-2.94907e-08,39810.7,100.175,-2.24727,100.097,3.92806,0.17207,10.4764,203,0.00509913
1_2,Potentiostatic EIS,175.703,-0.000389698,3.69506e-06,25118.8,100.047,-3.65691,99.8435,6.38119,0.158001,7.99729,204,0.00812141
1_2,Potentiostatic EIS,177.828,-0.000225183,0.000275567,15848.875,100.567,-5.80163,100.052,10.1658,0.322164,10.8846,204,0.0128716
1_2,Potentiostatic EIS,181.087,0.000528853,-0.000227811,9999.98,101.226,-9.04926,99.9657,15.9211,0.0829681,7.87882,205,0.0205
1_2,Potentiostatic EIS,184.164,0.000596123,-0.000204636,6309.57,103.203,-14.1718,100.062,25.2672,0.118736,10.9733,133,0.0210791
1_2,Potentiostatic EIS,188.503,0.000604349,-0.000205852,3981.05,107.951,-21.9047,100.158,40.2725,0.12991,10.9528,81,0.0203464
1_2,Potentiostatic EIS,194.043,0.000302432,-0.000199731,2511.88,119.021,-32.438,100.451,63.8414,0.128438,10.9432,50,0.0199054
1_2,Potentiostatic EIS,194.685,0.000301743,-0.000200062,1584.89,143.218,-45.0589,101.166,101.375,0.215045,11.9952,649,0.409492
1_2,Potentiostatic EIS,195.241,0.000299475,-1.59416e-07,999.996,190.844,-57.3826,102.87,160.746,0.074973,10.0206,409,0.409002
1_2,Potentiostatic EIS,195.715,0.000300957,-8.37997e-07,630.956,276.314,-67.2585,106.816,254.833,0.0888637,9.80071,257,0.407318
1_2,Potentiostatic EIS,196.247,0.000296291,-2.40325e-05,398.105,420.098,-73.8712,116.702,403.563,0.109306,9.5374,162,0.406927
1_2,Potentiostatic EIS,196.9,0.000294644,-2.31643e-05,251.188,653.537,-77.4859,141.608,638.01,0.271575,9.43004,101,0.402089
1_2,Potentiostatic EIS,197.379,0.000286377,-2.45662e-05,158.489,1025.16,-78.5833,202.924,1004.88,0.266901,9.36995,64,0.403813
1_2,Potentiostatic EIS,197.862,0.000285751,-2.39461e-05,99.9993,1607.93,-77.294,353.661,1568.55,0.254283,9.34626,40,0.400003
1_2,Potentiostatic EIS,198.47,0.000290221,1.24459e-05,63.0956,2498.16,-73.4444,711.841,2394.6,0.601429,9.33763,25,0.396224
1_2,Potentiostatic EIS,199.02,0.000291951,1.35846e-05,39.8106,3785.37,-66.5576,1505.93,3472.93,0.158564,8.63365,16,0.401903
1_2,Potentiostatic EIS,199.54,0.000292502,1.41845e-05,25.1188,5447.28,-56.4417,3011.18,4539.35,0.113877,9.5109,10,0.398108
1_2,Potentiostatic EIS,201.548,0.000308283,1.31721e-05,15.8489,7197.48,-43.9799,5179.19,4997.97,0.288265,9.11276,6,0.378576
1_2,Potentiostatic EIS,202.19,0.000296118,1.19598e-05,9.99998,8579.3,-31.4737,7317.12,4479.32,0.308584,9.23593,4,0.400001
1_2,Potentiostatic EIS,202.866,0.000292005,1.18788e-05,6.30953,9403.72,-21.1754,8768.77,3396.86,0.227341,9.29136,2,0.316981
1_2,Potentiostatic EIS,203.662,0.000294214,1.26559e-05,3.98106,9803.11,-13.7663,9521.51,2332.76,0.217879,9.30942,2,0.502378
1_2,Potentiostatic EIS,204.898,0.000294552,1.25362e-05,2.51188,9981.13,-8.77229,9864.37,1522.2,0.101512,9.32098,2,0.796217
1_2,Potentiostatic EIS,206.833,0.000297322,1.28988e-05,1.58489,10053.8,-5.5692,10006.3,975.701,0.0988391,9.3306,2,1.26192
1_2,Potentiostatic EIS,208.848,0.000300102,1.27859e-05,0.999995,10083.3,-3.48752,10064.7,613.381,0.0938869,9.32819,2,2.00001